Trial Number,Test Number,Set Size,Words Displayed,Test Word,Is Target,Participant Response,Correct,Timestamp,Response Time
1,1,30,"['crowd', 'extra', 'lease', 'stuff', 'crazy', 'angry', 'flash', 'spend', 'drama', 'lunch', 'today', 'plant', 'model', 'craft', 'train', 'quiet', 'again', 'point', 'photo', 'leave', 'habit', 'brown', 'voice', 'plane', 'often', 'build', 'enjoy', 'large', 'ideal', 'grade']",prize,False,Yes,False,1730929403.0204887,1.5363490581512451
1,2,30,"['crowd', 'extra', 'lease', 'stuff', 'crazy', 'angry', 'flash', 'spend', 'drama', 'lunch', 'today', 'plant', 'model', 'craft', 'train', 'quiet', 'again', 'point', 'photo', 'leave', 'habit', 'brown', 'voice', 'plane', 'often', 'build', 'enjoy', 'large', 'ideal', 'grade']",crime,False,Yes,False,1730929404.835487,1.1138968467712402
1,3,30,"['crowd', 'extra', 'lease', 'stuff', 'crazy', 'angry', 'flash', 'spend', 'drama', 'lunch', 'today', 'plant', 'model', 'craft', 'train', 'quiet', 'again', 'point', 'photo', 'leave', 'habit', 'brown', 'voice', 'plane', 'often', 'build', 'enjoy', 'large', 'ideal', 'grade']",brown,True,Yes,True,1730929406.7564812,1.2194297313690186
1,4,30,"['crowd', 'extra', 'lease', 'stuff', 'crazy', 'angry', 'flash', 'spend', 'drama', 'lunch', 'today', 'plant', 'model', 'craft', 'train', 'quiet', 'again', 'point', 'photo', 'leave', 'habit', 'brown', 'voice', 'plane', 'often', 'build', 'enjoy', 'large', 'ideal', 'grade']",today,True,Yes,True,1730929408.0894833,0.6318042278289795
1,5,30,"['crowd', 'extra', 'lease', 'stuff', 'crazy', 'angry', 'flash', 'spend', 'drama', 'lunch', 'today', 'plant', 'model', 'craft', 'train', 'quiet', 'again', 'point', 'photo', 'leave', 'habit', 'brown', 'voice', 'plane', 'often', 'build', 'enjoy', 'large', 'ideal', 'grade']",grade,True,Yes,True,1730929409.5544834,0.7635796070098877
1,6,30,"['crowd', 'extra', 'lease', 'stuff', 'crazy', 'angry', 'flash', 'spend', 'drama', 'lunch', 'today', 'plant', 'model', 'craft', 'train', 'quiet', 'again', 'point', 'photo', 'leave', 'habit', 'brown', 'voice', 'plane', 'often', 'build', 'enjoy', 'large', 'ideal', 'grade']",would,False,No,True,1730929411.673483,1.4174678325653076
1,7,30,"['crowd', 'extra', 'lease', 'stuff', 'crazy', 'angry', 'flash', 'spend', 'drama', 'lunch', 'today', 'plant', 'model', 'craft', 'train', 'quiet', 'again', 'point', 'photo', 'leave', 'habit', 'brown', 'voice', 'plane', 'often', 'build', 'enjoy', 'large', 'ideal', 'grade']",worth,False,No,True,1730929413.8464828,1.4718799591064453
1,8,30,"['crowd', 'extra', 'lease', 'stuff', 'crazy', 'angry', 'flash', 'spend', 'drama', 'lunch', 'today', 'plant', 'model', 'craft', 'train', 'quiet', 'again', 'point', 'photo', 'leave', 'habit', 'brown', 'voice', 'plane', 'often', 'build', 'enjoy', 'large', 'ideal', 'grade']",train,True,Yes,True,1730929415.430482,0.882138729095459
1,9,30,"['crowd', 'extra', 'lease', 'stuff', 'crazy', 'angry', 'flash', 'spend', 'drama', 'lunch', 'today', 'plant', 'model', 'craft', 'train', 'quiet', 'again', 'point', 'photo', 'leave', 'habit', 'brown', 'voice', 'plane', 'often', 'build', 'enjoy', 'large', 'ideal', 'grade']",quiet,True,Yes,True,1730929418.764481,2.632611036300659
1,10,30,"['crowd', 'extra', 'lease', 'stuff', 'crazy', 'angry', 'flash', 'spend', 'drama', 'lunch', 'today', 'plant', 'model', 'craft', 'train', 'quiet', 'again', 'point', 'photo', 'leave', 'habit', 'brown', 'voice', 'plane', 'often', 'build', 'enjoy', 'large', 'ideal', 'grade']",worry,False,Yes,False,1730929420.3144855,0.8485054969787598
2,1,5,"['actor', 'curve', 'skill', 'month', 'adopt']",noted,False,No,True,1730929428.833482,1.3037405014038086
2,2,5,"['actor', 'curve', 'skill', 'month', 'adopt']",dozen,False,No,True,1730929430.2484818,0.7137100696563721
2,3,5,"['actor', 'curve', 'skill', 'month', 'adopt']",curve,True,Yes,True,1730929431.895482,0.9464054107666016
2,4,5,"['actor', 'curve', 'skill', 'month', 'adopt']",actor,True,Yes,True,1730929433.6764822,1.0803241729736328
2,5,5,"['actor', 'curve', 'skill', 'month', 'adopt']",rival,False,No,True,1730929435.2684836,0.8906369209289551
2,6,5,"['actor', 'curve', 'skill', 'month', 'adopt']",month,True,Yes,True,1730929437.0994825,1.130251169204712
2,7,5,"['actor', 'curve', 'skill', 'month', 'adopt']",piece,False,No,True,1730929438.876482,1.076230764389038
2,8,5,"['actor', 'curve', 'skill', 'month', 'adopt']",adopt,True,Yes,True,1730929440.6634808,1.0858914852142334
2,9,5,"['actor', 'curve', 'skill', 'month', 'adopt']",skill,True,Yes,True,1730929442.409489,1.0450537204742432
2,10,5,"['actor', 'curve', 'skill', 'month', 'adopt']",speak,False,No,True,1730929445.6474826,2.5366358757019043
3,1,20,"['daily', 'drill', 'zebra', 'thing', 'depth', 'chase', 'known', 'smith', 'ahead', 'flash', 'fault', 'blood', 'board', 'twice', 'laugh', 'arena', 'trade', 'blind', 'tried', 'crash']",dozen,False,No,True,1730929469.6204832,1.7572269439697266
3,2,20,"['daily', 'drill', 'zebra', 'thing', 'depth', 'chase', 'known', 'smith', 'ahead', 'flash', 'fault', 'blood', 'board', 'twice', 'laugh', 'arena', 'trade', 'blind', 'tried', 'crash']",board,True,No,False,1730929471.9564836,1.634204626083374
3,3,20,"['daily', 'drill', 'zebra', 'thing', 'depth', 'chase', 'known', 'smith', 'ahead', 'flash', 'fault', 'blood', 'board', 'twice', 'laugh', 'arena', 'trade', 'blind', 'tried', 'crash']",smith,True,Yes,True,1730929473.5684829,0.9111814498901367
3,4,20,"['daily', 'drill', 'zebra', 'thing', 'depth', 'chase', 'known', 'smith', 'ahead', 'flash', 'fault', 'blood', 'board', 'twice', 'laugh', 'arena', 'trade', 'blind', 'tried', 'crash']",twice,True,Yes,True,1730929474.9524827,0.6824748516082764
3,5,20,"['daily', 'drill', 'zebra', 'thing', 'depth', 'chase', 'known', 'smith', 'ahead', 'flash', 'fault', 'blood', 'board', 'twice', 'laugh', 'arena', 'trade', 'blind', 'tried', 'crash']",sound,False,No,True,1730929476.706482,1.0525574684143066
3,6,20,"['daily', 'drill', 'zebra', 'thing', 'depth', 'chase', 'known', 'smith', 'ahead', 'flash', 'fault', 'blood', 'board', 'twice', 'laugh', 'arena', 'trade', 'blind', 'tried', 'crash']",tried,True,Yes,True,1730929478.1874802,0.7787520885467529
3,7,20,"['daily', 'drill', 'zebra', 'thing', 'depth', 'chase', 'known', 'smith', 'ahead', 'flash', 'fault', 'blood', 'board', 'twice', 'laugh', 'arena', 'trade', 'blind', 'tried', 'crash']",craft,False,Yes,False,1730929481.2874842,2.398709774017334
3,8,20,"['daily', 'drill', 'zebra', 'thing', 'depth', 'chase', 'known', 'smith', 'ahead', 'flash', 'fault', 'blood', 'board', 'twice', 'laugh', 'arena', 'trade', 'blind', 'tried', 'crash']",honor,False,No,True,1730929483.1294825,1.141144037246704
3,9,20,"['daily', 'drill', 'zebra', 'thing', 'depth', 'chase', 'known', 'smith', 'ahead', 'flash', 'fault', 'blood', 'board', 'twice', 'laugh', 'arena', 'trade', 'blind', 'tried', 'crash']",minus,False,No,True,1730929485.4094825,1.5787811279296875
3,10,20,"['daily', 'drill', 'zebra', 'thing', 'depth', 'chase', 'known', 'smith', 'ahead', 'flash', 'fault', 'blood', 'board', 'twice', 'laugh', 'arena', 'trade', 'blind', 'tried', 'crash']",blind,True,Yes,True,1730929486.7724845,0.6618506908416748
4,1,10,"['going', 'hotel', 'dying', 'imply', 'ought', 'count', 'camel', 'light', 'after', 'pilot']",dying,True,Yes,True,1730929500.1564815,1.1732232570648193
4,2,10,"['going', 'hotel', 'dying', 'imply', 'ought', 'count', 'camel', 'light', 'after', 'pilot']",going,True,Yes,True,1730929501.5024843,0.6454241275787354
4,3,10,"['going', 'hotel', 'dying', 'imply', 'ought', 'count', 'camel', 'light', 'after', 'pilot']",album,False,No,True,1730929503.201483,0.9972240924835205
4,4,10,"['going', 'hotel', 'dying', 'imply', 'ought', 'count', 'camel', 'light', 'after', 'pilot']",alter,False,Yes,False,1730929504.5794835,0.6769347190856934
4,5,10,"['going', 'hotel', 'dying', 'imply', 'ought', 'count', 'camel', 'light', 'after', 'pilot']",lunch,False,No,True,1730929508.3894813,3.109020709991455
4,6,10,"['going', 'hotel', 'dying', 'imply', 'ought', 'count', 'camel', 'light', 'after', 'pilot']",after,True,Yes,True,1730929509.5764842,0.4854111671447754
4,7,10,"['going', 'hotel', 'dying', 'imply', 'ought', 'count', 'camel', 'light', 'after', 'pilot']",tries,False,No,True,1730929512.4714825,2.193247079849243
4,8,10,"['going', 'hotel', 'dying', 'imply', 'ought', 'count', 'camel', 'light', 'after', 'pilot']",think,False,No,True,1730929514.058481,0.8850967884063721
4,9,10,"['going', 'hotel', 'dying', 'imply', 'ought', 'count', 'camel', 'light', 'after', 'pilot']",camel,True,Yes,True,1730929515.2894819,0.5297272205352783
4,10,10,"['going', 'hotel', 'dying', 'imply', 'ought', 'count', 'camel', 'light', 'after', 'pilot']",light,True,Yes,True,1730929516.4534817,0.4627072811126709
5,1,15,"['calm', 'wrote', 'curve', 'gross', 'range', 'thank', 'click', 'watch', 'fraud', 'today', 'least', 'stick', 'shape', 'clock', 'legal']",watch,True,Yes,True,1730929534.8694825,1.208082914352417
5,2,15,"['calm', 'wrote', 'curve', 'gross', 'range', 'thank', 'click', 'watch', 'fraud', 'today', 'least', 'stick', 'shape', 'clock', 'legal']",alter,False,No,True,1730929538.233484,2.663038492202759
5,3,15,"['calm', 'wrote', 'curve', 'gross', 'range', 'thank', 'click', 'watch', 'fraud', 'today', 'least', 'stick', 'shape', 'clock', 'legal']",actor,False,No,True,1730929539.9414818,1.0073952674865723
5,4,15,"['calm', 'wrote', 'curve', 'gross', 'range', 'thank', 'click', 'watch', 'fraud', 'today', 'least', 'stick', 'shape', 'clock', 'legal']",ratio,False,Yes,False,1730929541.369482,0.7256636619567871
5,5,15,"['calm', 'wrote', 'curve', 'gross', 'range', 'thank', 'click', 'watch', 'fraud', 'today', 'least', 'stick', 'shape', 'clock', 'legal']",today,True,Yes,True,1730929542.7344825,0.6636240482330322
5,6,15,"['calm', 'wrote', 'curve', 'gross', 'range', 'thank', 'click', 'watch', 'fraud', 'today', 'least', 'stick', 'shape', 'clock', 'legal']",thank,True,No,False,1730929545.001485,1.565382480621338
5,7,15,"['calm', 'wrote', 'curve', 'gross', 'range', 'thank', 'click', 'watch', 'fraud', 'today', 'least', 'stick', 'shape', 'clock', 'legal']",ahead,False,No,True,1730929547.4584827,1.7560293674468994
5,8,15,"['calm', 'wrote', 'curve', 'gross', 'range', 'thank', 'click', 'watch', 'fraud', 'today', 'least', 'stick', 'shape', 'clock', 'legal']",gross,True,Yes,True,1730929548.717484,0.5574164390563965
5,9,15,"['calm', 'wrote', 'curve', 'gross', 'range', 'thank', 'click', 'watch', 'fraud', 'today', 'least', 'stick', 'shape', 'clock', 'legal']",least,True,Yes,True,1730929550.0804825,0.6615159511566162
5,10,15,"['calm', 'wrote', 'curve', 'gross', 'range', 'thank', 'click', 'watch', 'fraud', 'today', 'least', 'stick', 'shape', 'clock', 'legal']",still,False,No,True,1730929551.7694862,0.9876558780670166
6,1,25,"['leave', 'steam', 'faith', 'usual', 'drive', 'buyer', 'sixth', 'close', 'audio', 'suite', 'speed', 'under', 'build', 'chalk', 'count', 'board', 'break', 'arise', 'chart', 'shift', 'share', 'whole', 'quiet', 'dance', 'along']",under,True,Yes,True,1730929580.4244852,1.4491615295410156
6,2,25,"['leave', 'steam', 'faith', 'usual', 'drive', 'buyer', 'sixth', 'close', 'audio', 'suite', 'speed', 'under', 'build', 'chalk', 'count', 'board', 'break', 'arise', 'chart', 'shift', 'share', 'whole', 'quiet', 'dance', 'along']",close,True,No,False,1730929582.9814825,1.8565075397491455
6,3,25,"['leave', 'steam', 'faith', 'usual', 'drive', 'buyer', 'sixth', 'close', 'audio', 'suite', 'speed', 'under', 'build', 'chalk', 'count', 'board', 'break', 'arise', 'chart', 'shift', 'share', 'whole', 'quiet', 'dance', 'along']",start,False,Yes,False,1730929584.3594825,0.6763625144958496
6,4,25,"['leave', 'steam', 'faith', 'usual', 'drive', 'buyer', 'sixth', 'close', 'audio', 'suite', 'speed', 'under', 'build', 'chalk', 'count', 'board', 'break', 'arise', 'chart', 'shift', 'share', 'whole', 'quiet', 'dance', 'along']",faith,True,No,False,1730929586.022482,0.9614958763122559
6,5,25,"['leave', 'steam', 'faith', 'usual', 'drive', 'buyer', 'sixth', 'close', 'audio', 'suite', 'speed', 'under', 'build', 'chalk', 'count', 'board', 'break', 'arise', 'chart', 'shift', 'share', 'whole', 'quiet', 'dance', 'along']",queen,False,No,True,1730929587.6304834,0.9071552753448486
6,6,25,"['leave', 'steam', 'faith', 'usual', 'drive', 'buyer', 'sixth', 'close', 'audio', 'suite', 'speed', 'under', 'build', 'chalk', 'count', 'board', 'break', 'arise', 'chart', 'shift', 'share', 'whole', 'quiet', 'dance', 'along']",audio,True,Yes,True,1730929589.0234814,0.6916522979736328
6,7,25,"['leave', 'steam', 'faith', 'usual', 'drive', 'buyer', 'sixth', 'close', 'audio', 'suite', 'speed', 'under', 'build', 'chalk', 'count', 'board', 'break', 'arise', 'chart', 'shift', 'share', 'whole', 'quiet', 'dance', 'along']",robot,False,No,True,1730929590.6584814,0.9331135749816895
6,8,25,"['leave', 'steam', 'faith', 'usual', 'drive', 'buyer', 'sixth', 'close', 'audio', 'suite', 'speed', 'under', 'build', 'chalk', 'count', 'board', 'break', 'arise', 'chart', 'shift', 'share', 'whole', 'quiet', 'dance', 'along']",rival,False,Yes,False,1730929591.9704835,0.6104962825775146
6,9,25,"['leave', 'steam', 'faith', 'usual', 'drive', 'buyer', 'sixth', 'close', 'audio', 'suite', 'speed', 'under', 'build', 'chalk', 'count', 'board', 'break', 'arise', 'chart', 'shift', 'share', 'whole', 'quiet', 'dance', 'along']",video,False,No,True,1730929593.5054843,0.8338727951049805
6,10,25,"['leave', 'steam', 'faith', 'usual', 'drive', 'buyer', 'sixth', 'close', 'audio', 'suite', 'speed', 'under', 'build', 'chalk', 'count', 'board', 'break', 'arise', 'chart', 'shift', 'share', 'whole', 'quiet', 'dance', 'along']",arise,True,Yes,True,1730929594.9334924,0.7264313697814941
7,1,15,"['drink', 'chart', 'treat', 'below', 'armed', 'value', 'prize', 'write', 'trust', 'trade', 'needs', 'chalk', 'human', 'death', 'shall']",spare,False,No,True,1730929613.8524835,1.7026863098144531
7,2,15,"['drink', 'chart', 'treat', 'below', 'armed', 'value', 'prize', 'write', 'trust', 'trade', 'needs', 'chalk', 'human', 'death', 'shall']",chalk,True,Yes,True,1730929615.1564815,0.6025805473327637
7,3,15,"['drink', 'chart', 'treat', 'below', 'armed', 'value', 'prize', 'write', 'trust', 'trade', 'needs', 'chalk', 'human', 'death', 'shall']",death,True,Yes,True,1730929616.337483,0.47972750663757324
7,4,15,"['drink', 'chart', 'treat', 'below', 'armed', 'value', 'prize', 'write', 'trust', 'trade', 'needs', 'chalk', 'human', 'death', 'shall']",music,False,No,True,1730929618.7694838,1.7308802604675293
7,5,15,"['drink', 'chart', 'treat', 'below', 'armed', 'value', 'prize', 'write', 'trust', 'trade', 'needs', 'chalk', 'human', 'death', 'shall']",write,True,No,False,1730929620.4464834,0.9760897159576416
7,6,15,"['drink', 'chart', 'treat', 'below', 'armed', 'value', 'prize', 'write', 'trust', 'trade', 'needs', 'chalk', 'human', 'death', 'shall']",steam,False,Yes,False,1730929621.7454822,0.5970726013183594
7,7,15,"['drink', 'chart', 'treat', 'below', 'armed', 'value', 'prize', 'write', 'trust', 'trade', 'needs', 'chalk', 'human', 'death', 'shall']",trust,True,Yes,True,1730929623.190483,0.7441484928131104
7,8,15,"['drink', 'chart', 'treat', 'below', 'armed', 'value', 'prize', 'write', 'trust', 'trade', 'needs', 'chalk', 'human', 'death', 'shall']",plant,False,Yes,False,1730929624.9134843,1.0213849544525146
7,9,15,"['drink', 'chart', 'treat', 'below', 'armed', 'value', 'prize', 'write', 'trust', 'trade', 'needs', 'chalk', 'human', 'death', 'shall']",civil,False,No,True,1730929627.037483,1.4231722354888916
7,10,15,"['drink', 'chart', 'treat', 'below', 'armed', 'value', 'prize', 'write', 'trust', 'trade', 'needs', 'chalk', 'human', 'death', 'shall']",treat,True,Yes,True,1730929628.548481,0.8098993301391602
8,1,5,"['nerve', 'blind', 'thing', 'legal', 'pound']",thing,True,Yes,True,1730929636.8594859,1.1043529510498047
8,2,5,"['nerve', 'blind', 'thing', 'legal', 'pound']",pound,True,Yes,True,1730929638.2594817,0.6985008716583252
8,3,5,"['nerve', 'blind', 'thing', 'legal', 'pound']",rapid,False,No,True,1730929639.8894823,0.9285764694213867
8,4,5,"['nerve', 'blind', 'thing', 'legal', 'pound']",armed,False,Yes,False,1730929641.2454836,0.6552064418792725
8,5,5,"['nerve', 'blind', 'thing', 'legal', 'pound']",legal,True,Yes,True,1730929642.5394847,0.5923383235931396
8,6,5,"['nerve', 'blind', 'thing', 'legal', 'pound']",maker,False,No,True,1730929644.6024866,1.3622620105743408
8,7,5,"['nerve', 'blind', 'thing', 'legal', 'pound']",nerve,True,Yes,True,1730929646.1644828,0.8606839179992676
8,8,5,"['nerve', 'blind', 'thing', 'legal', 'pound']",blind,True,Yes,True,1730929647.590481,0.7245821952819824
8,9,5,"['nerve', 'blind', 'thing', 'legal', 'pound']",waste,False,No,True,1730929649.2204819,0.9292662143707275
8,10,5,"['nerve', 'blind', 'thing', 'legal', 'pound']",dated,False,No,True,1730929651.0364807,1.114771842956543
9,1,35,"['youth', 'argue', 'quick', 'error', 'throw', 'tower', 'paper', 'never', 'cache', 'newly', 'grown', 'shoot', 'cruel', 'award', 'first', 'fresh', 'wound', 'again', 'plain', 'delay', 'early', 'after', 'novel', 'broad', 'sixth', 'aside', 'since', 'sweet', 'armed', 'sport', 'coach', 'total', 'acute', 'print', 'basic']",large,False,No,True,1730929689.9584823,1.7087721824645996
9,2,35,"['youth', 'argue', 'quick', 'error', 'throw', 'tower', 'paper', 'never', 'cache', 'newly', 'grown', 'shoot', 'cruel', 'award', 'first', 'fresh', 'wound', 'again', 'plain', 'delay', 'early', 'after', 'novel', 'broad', 'sixth', 'aside', 'since', 'sweet', 'armed', 'sport', 'coach', 'total', 'acute', 'print', 'basic']",clean,False,Yes,False,1730929692.9435081,2.28326416015625
9,3,35,"['youth', 'argue', 'quick', 'error', 'throw', 'tower', 'paper', 'never', 'cache', 'newly', 'grown', 'shoot', 'cruel', 'award', 'first', 'fresh', 'wound', 'again', 'plain', 'delay', 'early', 'after', 'novel', 'broad', 'sixth', 'aside', 'since', 'sweet', 'armed', 'sport', 'coach', 'total', 'acute', 'print', 'basic']",newly,True,Yes,True,1730929694.2374833,0.5931715965270996
9,4,35,"['youth', 'argue', 'quick', 'error', 'throw', 'tower', 'paper', 'never', 'cache', 'newly', 'grown', 'shoot', 'cruel', 'award', 'first', 'fresh', 'wound', 'again', 'plain', 'delay', 'early', 'after', 'novel', 'broad', 'sixth', 'aside', 'since', 'sweet', 'armed', 'sport', 'coach', 'total', 'acute', 'print', 'basic']",since,True,No,False,1730929696.074482,1.1355984210968018
9,5,35,"['youth', 'argue', 'quick', 'error', 'throw', 'tower', 'paper', 'never', 'cache', 'newly', 'grown', 'shoot', 'cruel', 'award', 'first', 'fresh', 'wound', 'again', 'plain', 'delay', 'early', 'after', 'novel', 'broad', 'sixth', 'aside', 'since', 'sweet', 'armed', 'sport', 'coach', 'total', 'acute', 'print', 'basic']",total,True,Yes,True,1730929697.285482,0.5100724697113037
9,6,35,"['youth', 'argue', 'quick', 'error', 'throw', 'tower', 'paper', 'never', 'cache', 'newly', 'grown', 'shoot', 'cruel', 'award', 'first', 'fresh', 'wound', 'again', 'plain', 'delay', 'early', 'after', 'novel', 'broad', 'sixth', 'aside', 'since', 'sweet', 'armed', 'sport', 'coach', 'total', 'acute', 'print', 'basic']",asset,False,No,True,1730929698.8954847,0.9090092182159424
9,7,35,"['youth', 'argue', 'quick', 'error', 'throw', 'tower', 'paper', 'never', 'cache', 'newly', 'grown', 'shoot', 'cruel', 'award', 'first', 'fresh', 'wound', 'again', 'plain', 'delay', 'early', 'after', 'novel', 'broad', 'sixth', 'aside', 'since', 'sweet', 'armed', 'sport', 'coach', 'total', 'acute', 'print', 'basic']",sweet,True,No,False,1730929700.5044806,0.9077472686767578
9,8,35,"['youth', 'argue', 'quick', 'error', 'throw', 'tower', 'paper', 'never', 'cache', 'newly', 'grown', 'shoot', 'cruel', 'award', 'first', 'fresh', 'wound', 'again', 'plain', 'delay', 'early', 'after', 'novel', 'broad', 'sixth', 'aside', 'since', 'sweet', 'armed', 'sport', 'coach', 'total', 'acute', 'print', 'basic']",topic,False,No,True,1730929702.5634804,1.3581852912902832
9,9,35,"['youth', 'argue', 'quick', 'error', 'throw', 'tower', 'paper', 'never', 'cache', 'newly', 'grown', 'shoot', 'cruel', 'award', 'first', 'fresh', 'wound', 'again', 'plain', 'delay', 'early', 'after', 'novel', 'broad', 'sixth', 'aside', 'since', 'sweet', 'armed', 'sport', 'coach', 'total', 'acute', 'print', 'basic']",novel,True,Yes,True,1730929703.9394863,0.6745884418487549
9,10,35,"['youth', 'argue', 'quick', 'error', 'throw', 'tower', 'paper', 'never', 'cache', 'newly', 'grown', 'shoot', 'cruel', 'award', 'first', 'fresh', 'wound', 'again', 'plain', 'delay', 'early', 'after', 'novel', 'broad', 'sixth', 'aside', 'since', 'sweet', 'armed', 'sport', 'coach', 'total', 'acute', 'print', 'basic']",could,False,No,True,1730929705.354482,0.7138125896453857
10,1,5,"['clerk', 'fraud', 'aside', 'focus', 'charm']",today,False,No,True,1730929713.7604833,1.2037885189056396
10,2,5,"['clerk', 'fraud', 'aside', 'focus', 'charm']",clerk,True,Yes,True,1730929715.1544836,0.6924307346343994
10,3,5,"['clerk', 'fraud', 'aside', 'focus', 'charm']",stick,False,No,True,1730929716.602482,0.7468512058258057
10,4,5,"['clerk', 'fraud', 'aside', 'focus', 'charm']",charm,True,Yes,True,1730929718.1514819,0.84751296043396
10,5,5,"['clerk', 'fraud', 'aside', 'focus', 'charm']",aside,True,Yes,True,1730929719.5744846,0.7223875522613525
10,6,5,"['clerk', 'fraud', 'aside', 'focus', 'charm']",upset,False,No,True,1730929722.0964835,1.820648431777954
10,7,5,"['clerk', 'fraud', 'aside', 'focus', 'charm']",fraud,True,Yes,True,1730929723.5504808,0.7524287700653076
10,8,5,"['clerk', 'fraud', 'aside', 'focus', 'charm']",royal,False,No,True,1730929725.1094856,0.8581180572509766
10,9,5,"['clerk', 'fraud', 'aside', 'focus', 'charm']",focus,True,Yes,True,1730929726.5524864,0.7414319515228271
10,10,5,"['clerk', 'fraud', 'aside', 'focus', 'charm']",judge,False,No,True,1730929728.0864813,0.8318688869476318
11,1,30,"['candy', 'dress', 'clerk', 'front', 'newly', 'smith', 'climb', 'block', 'heart', 'scope', 'study', 'serve', 'unity', 'black', 'giant', 'chess', 'strip', 'inner', 'imply', 'raise', 'horse', 'after', 'month', 'grand', 'legal', 'depth', 'ocean', 'ratio', 'apart', 'chill']",robin,False,No,True,1730929762.3894825,2.096421480178833
11,2,30,"['candy', 'dress', 'clerk', 'front', 'newly', 'smith', 'climb', 'block', 'heart', 'scope', 'study', 'serve', 'unity', 'black', 'giant', 'chess', 'strip', 'inner', 'imply', 'raise', 'horse', 'after', 'month', 'grand', 'legal', 'depth', 'ocean', 'ratio', 'apart', 'chill']",month,True,Yes,True,1730929763.8064828,0.7155971527099609
11,3,30,"['candy', 'dress', 'clerk', 'front', 'newly', 'smith', 'climb', 'block', 'heart', 'scope', 'study', 'serve', 'unity', 'black', 'giant', 'chess', 'strip', 'inner', 'imply', 'raise', 'horse', 'after', 'month', 'grand', 'legal', 'depth', 'ocean', 'ratio', 'apart', 'chill']",solve,False,Yes,False,1730929765.1034884,0.595435380935669
11,4,30,"['candy', 'dress', 'clerk', 'front', 'newly', 'smith', 'climb', 'block', 'heart', 'scope', 'study', 'serve', 'unity', 'black', 'giant', 'chess', 'strip', 'inner', 'imply', 'raise', 'horse', 'after', 'month', 'grand', 'legal', 'depth', 'ocean', 'ratio', 'apart', 'chill']",legal,True,Yes,True,1730929766.3324814,0.5277152061462402
11,5,30,"['candy', 'dress', 'clerk', 'front', 'newly', 'smith', 'climb', 'block', 'heart', 'scope', 'study', 'serve', 'unity', 'black', 'giant', 'chess', 'strip', 'inner', 'imply', 'raise', 'horse', 'after', 'month', 'grand', 'legal', 'depth', 'ocean', 'ratio', 'apart', 'chill']",south,False,Yes,False,1730929767.6924827,0.658710241317749
11,6,30,"['candy', 'dress', 'clerk', 'front', 'newly', 'smith', 'climb', 'block', 'heart', 'scope', 'study', 'serve', 'unity', 'black', 'giant', 'chess', 'strip', 'inner', 'imply', 'raise', 'horse', 'after', 'month', 'grand', 'legal', 'depth', 'ocean', 'ratio', 'apart', 'chill']",young,False,Yes,False,1730929769.2244806,0.8305530548095703
11,7,30,"['candy', 'dress', 'clerk', 'front', 'newly', 'smith', 'climb', 'block', 'heart', 'scope', 'study', 'serve', 'unity', 'black', 'giant', 'chess', 'strip', 'inner', 'imply', 'raise', 'horse', 'after', 'month', 'grand', 'legal', 'depth', 'ocean', 'ratio', 'apart', 'chill']",stuck,False,Yes,False,1730929770.533483,0.6065146923065186
11,8,30,"['candy', 'dress', 'clerk', 'front', 'newly', 'smith', 'climb', 'block', 'heart', 'scope', 'study', 'serve', 'unity', 'black', 'giant', 'chess', 'strip', 'inner', 'imply', 'raise', 'horse', 'after', 'month', 'grand', 'legal', 'depth', 'ocean', 'ratio', 'apart', 'chill']",scope,True,Yes,True,1730929771.865482,0.6310360431671143
11,9,30,"['candy', 'dress', 'clerk', 'front', 'newly', 'smith', 'climb', 'block', 'heart', 'scope', 'study', 'serve', 'unity', 'black', 'giant', 'chess', 'strip', 'inner', 'imply', 'raise', 'horse', 'after', 'month', 'grand', 'legal', 'depth', 'ocean', 'ratio', 'apart', 'chill']",apart,True,Yes,True,1730929773.226482,0.6603636741638184
11,10,30,"['candy', 'dress', 'clerk', 'front', 'newly', 'smith', 'climb', 'block', 'heart', 'scope', 'study', 'serve', 'unity', 'black', 'giant', 'chess', 'strip', 'inner', 'imply', 'raise', 'horse', 'after', 'month', 'grand', 'legal', 'depth', 'ocean', 'ratio', 'apart', 'chill']",study,True,Yes,True,1730929774.750482,0.823195219039917
12,1,10,"['model', 'magic', 'birth', 'blame', 'audit', 'crush', 'frank', 'group', 'bench', 'check']",group,True,Yes,True,1730929788.6554837,1.7017831802368164
12,2,10,"['model', 'magic', 'birth', 'blame', 'audit', 'crush', 'frank', 'group', 'bench', 'check']",super,False,No,True,1730929790.5634809,1.2074658870697021
12,3,10,"['model', 'magic', 'birth', 'blame', 'audit', 'crush', 'frank', 'group', 'bench', 'check']",birth,True,Yes,True,1730929791.8764842,0.6115398406982422
12,4,10,"['model', 'magic', 'birth', 'blame', 'audit', 'crush', 'frank', 'group', 'bench', 'check']",model,True,Yes,True,1730929793.4664824,0.8887066841125488
12,5,10,"['model', 'magic', 'birth', 'blame', 'audit', 'crush', 'frank', 'group', 'bench', 'check']",magic,True,Yes,True,1730929794.8954828,0.7276465892791748
12,6,10,"['model', 'magic', 'birth', 'blame', 'audit', 'crush', 'frank', 'group', 'bench', 'check']",adult,False,Yes,False,1730929796.2734818,0.6765141487121582
12,7,10,"['model', 'magic', 'birth', 'blame', 'audit', 'crush', 'frank', 'group', 'bench', 'check']",cause,False,Yes,False,1730929797.7684872,0.7939844131469727
12,8,10,"['model', 'magic', 'birth', 'blame', 'audit', 'crush', 'frank', 'group', 'bench', 'check']",crush,True,Yes,True,1730929799.2154832,0.7459242343902588
12,9,10,"['model', 'magic', 'birth', 'blame', 'audit', 'crush', 'frank', 'group', 'bench', 'check']",nerve,False,Yes,False,1730929800.629482,0.7127199172973633
12,10,10,"['model', 'magic', 'birth', 'blame', 'audit', 'crush', 'frank', 'group', 'bench', 'check']",money,False,No,True,1730929802.1794798,0.8480689525604248
13,1,35,"['shoot', 'track', 'quiet', 'dying', 'false', 'award', 'limit', 'curve', 'right', 'might', 'chess', 'laser', 'worth', 'giant', 'sport', 'crude', 'mouse', 'begun', 'chart', 'trust', 'doubt', 'drama', 'sixty', 'stone', 'judge', 'match', 'arrow', 'carry', 'fruit', 'needs', 'cruel', 'newly', 'tower', 'calm', 'times']",anger,False,Yes,False,1730929840.9654813,1.5725576877593994
13,2,35,"['shoot', 'track', 'quiet', 'dying', 'false', 'award', 'limit', 'curve', 'right', 'might', 'chess', 'laser', 'worth', 'giant', 'sport', 'crude', 'mouse', 'begun', 'chart', 'trust', 'doubt', 'drama', 'sixty', 'stone', 'judge', 'match', 'arrow', 'carry', 'fruit', 'needs', 'cruel', 'newly', 'tower', 'calm', 'times']",curve,True,Yes,True,1730929842.3444812,0.6779961585998535
13,3,35,"['shoot', 'track', 'quiet', 'dying', 'false', 'award', 'limit', 'curve', 'right', 'might', 'chess', 'laser', 'worth', 'giant', 'sport', 'crude', 'mouse', 'begun', 'chart', 'trust', 'doubt', 'drama', 'sixty', 'stone', 'judge', 'match', 'arrow', 'carry', 'fruit', 'needs', 'cruel', 'newly', 'tower', 'calm', 'times']",right,True,Yes,True,1730929843.572481,0.526602029800415
13,4,35,"['shoot', 'track', 'quiet', 'dying', 'false', 'award', 'limit', 'curve', 'right', 'might', 'chess', 'laser', 'worth', 'giant', 'sport', 'crude', 'mouse', 'begun', 'chart', 'trust', 'doubt', 'drama', 'sixty', 'stone', 'judge', 'match', 'arrow', 'carry', 'fruit', 'needs', 'cruel', 'newly', 'tower', 'calm', 'times']",chess,True,Yes,True,1730929844.9204805,0.6461431980133057
13,5,35,"['shoot', 'track', 'quiet', 'dying', 'false', 'award', 'limit', 'curve', 'right', 'might', 'chess', 'laser', 'worth', 'giant', 'sport', 'crude', 'mouse', 'begun', 'chart', 'trust', 'doubt', 'drama', 'sixty', 'stone', 'judge', 'match', 'arrow', 'carry', 'fruit', 'needs', 'cruel', 'newly', 'tower', 'calm', 'times']",stone,True,No,False,1730929847.3524818,1.7307155132293701
13,6,35,"['shoot', 'track', 'quiet', 'dying', 'false', 'award', 'limit', 'curve', 'right', 'might', 'chess', 'laser', 'worth', 'giant', 'sport', 'crude', 'mouse', 'begun', 'chart', 'trust', 'doubt', 'drama', 'sixty', 'stone', 'judge', 'match', 'arrow', 'carry', 'fruit', 'needs', 'cruel', 'newly', 'tower', 'calm', 'times']",giant,True,Yes,True,1730929848.6314821,0.5776076316833496
13,7,35,"['shoot', 'track', 'quiet', 'dying', 'false', 'award', 'limit', 'curve', 'right', 'might', 'chess', 'laser', 'worth', 'giant', 'sport', 'crude', 'mouse', 'begun', 'chart', 'trust', 'doubt', 'drama', 'sixty', 'stone', 'judge', 'match', 'arrow', 'carry', 'fruit', 'needs', 'cruel', 'newly', 'tower', 'calm', 'times']",blame,False,Yes,False,1730929850.0454812,0.7130577564239502
13,8,35,"['shoot', 'track', 'quiet', 'dying', 'false', 'award', 'limit', 'curve', 'right', 'might', 'chess', 'laser', 'worth', 'giant', 'sport', 'crude', 'mouse', 'begun', 'chart', 'trust', 'doubt', 'drama', 'sixty', 'stone', 'judge', 'match', 'arrow', 'carry', 'fruit', 'needs', 'cruel', 'newly', 'tower', 'calm', 'times']",stuck,False,No,True,1730929851.9814813,1.2346787452697754
13,9,35,"['shoot', 'track', 'quiet', 'dying', 'false', 'award', 'limit', 'curve', 'right', 'might', 'chess', 'laser', 'worth', 'giant', 'sport', 'crude', 'mouse', 'begun', 'chart', 'trust', 'doubt', 'drama', 'sixty', 'stone', 'judge', 'match', 'arrow', 'carry', 'fruit', 'needs', 'cruel', 'newly', 'tower', 'calm', 'times']",enemy,False,No,True,1730929853.674486,0.9915120601654053
13,10,35,"['shoot', 'track', 'quiet', 'dying', 'false', 'award', 'limit', 'curve', 'right', 'might', 'chess', 'laser', 'worth', 'giant', 'sport', 'crude', 'mouse', 'begun', 'chart', 'trust', 'doubt', 'drama', 'sixty', 'stone', 'judge', 'match', 'arrow', 'carry', 'fruit', 'needs', 'cruel', 'newly', 'tower', 'calm', 'times']",solve,False,Yes,False,1730929855.0844874,0.7090706825256348
14,1,25,"['award', 'royal', 'treat', 'blood', 'smile', 'guess', 'photo', 'coast', 'sight', 'these', 'spoke', 'sport', 'phase', 'green', 'raise', 'exact', 'arise', 'there', 'force', 'wrote', 'three', 'dated', 'women', 'worst', 'index']",sight,True,Yes,True,1730929884.3964844,2.1040542125701904
14,2,25,"['award', 'royal', 'treat', 'blood', 'smile', 'guess', 'photo', 'coast', 'sight', 'these', 'spoke', 'sport', 'phase', 'green', 'raise', 'exact', 'arise', 'there', 'force', 'wrote', 'three', 'dated', 'women', 'worst', 'index']",royal,True,Yes,True,1730929885.6584828,0.5612246990203857
14,3,25,"['award', 'royal', 'treat', 'blood', 'smile', 'guess', 'photo', 'coast', 'sight', 'these', 'spoke', 'sport', 'phase', 'green', 'raise', 'exact', 'arise', 'there', 'force', 'wrote', 'three', 'dated', 'women', 'worst', 'index']",proof,False,No,True,1730929888.3854837,2.026118040084839
14,4,25,"['award', 'royal', 'treat', 'blood', 'smile', 'guess', 'photo', 'coast', 'sight', 'these', 'spoke', 'sport', 'phase', 'green', 'raise', 'exact', 'arise', 'there', 'force', 'wrote', 'three', 'dated', 'women', 'worst', 'index']",force,True,No,False,1730929889.9854827,0.8988609313964844
14,5,25,"['award', 'royal', 'treat', 'blood', 'smile', 'guess', 'photo', 'coast', 'sight', 'these', 'spoke', 'sport', 'phase', 'green', 'raise', 'exact', 'arise', 'there', 'force', 'wrote', 'three', 'dated', 'women', 'worst', 'index']",point,False,No,True,1730929892.8944826,2.2075512409210205
14,6,25,"['award', 'royal', 'treat', 'blood', 'smile', 'guess', 'photo', 'coast', 'sight', 'these', 'spoke', 'sport', 'phase', 'green', 'raise', 'exact', 'arise', 'there', 'force', 'wrote', 'three', 'dated', 'women', 'worst', 'index']",peace,False,Yes,False,1730929895.0734801,1.477409839630127
14,7,25,"['award', 'royal', 'treat', 'blood', 'smile', 'guess', 'photo', 'coast', 'sight', 'these', 'spoke', 'sport', 'phase', 'green', 'raise', 'exact', 'arise', 'there', 'force', 'wrote', 'three', 'dated', 'women', 'worst', 'index']",smart,False,No,True,1730929897.815484,2.0409252643585205
14,8,25,"['award', 'royal', 'treat', 'blood', 'smile', 'guess', 'photo', 'coast', 'sight', 'these', 'spoke', 'sport', 'phase', 'green', 'raise', 'exact', 'arise', 'there', 'force', 'wrote', 'three', 'dated', 'women', 'worst', 'index']",mayor,False,No,True,1730929899.5524845,1.0355525016784668
14,9,25,"['award', 'royal', 'treat', 'blood', 'smile', 'guess', 'photo', 'coast', 'sight', 'these', 'spoke', 'sport', 'phase', 'green', 'raise', 'exact', 'arise', 'there', 'force', 'wrote', 'three', 'dated', 'women', 'worst', 'index']",arise,True,Yes,True,1730929900.879484,0.6259124279022217
14,10,25,"['award', 'royal', 'treat', 'blood', 'smile', 'guess', 'photo', 'coast', 'sight', 'these', 'spoke', 'sport', 'phase', 'green', 'raise', 'exact', 'arise', 'there', 'force', 'wrote', 'three', 'dated', 'women', 'worst', 'index']",green,True,Yes,True,1730929902.142488,0.5615956783294678
15,1,20,"['cheap', 'green', 'candy', 'guide', 'motor', 'grant', 'raise', 'shirt', 'think', 'prior', 'guest', 'field', 'cycle', 'empty', 'truly', 'later', 'arise', 'begin', 'pilot', 'robot']",candy,True,Yes,True,1730929926.4164822,2.0560853481292725
15,2,20,"['cheap', 'green', 'candy', 'guide', 'motor', 'grant', 'raise', 'shirt', 'think', 'prior', 'guest', 'field', 'cycle', 'empty', 'truly', 'later', 'arise', 'begin', 'pilot', 'robot']",buyer,False,No,True,1730929927.9414835,0.8244616985321045
15,3,20,"['cheap', 'green', 'candy', 'guide', 'motor', 'grant', 'raise', 'shirt', 'think', 'prior', 'guest', 'field', 'cycle', 'empty', 'truly', 'later', 'arise', 'begin', 'pilot', 'robot']",shirt,True,Yes,True,1730929929.357484,0.7155439853668213
15,4,20,"['cheap', 'green', 'candy', 'guide', 'motor', 'grant', 'raise', 'shirt', 'think', 'prior', 'guest', 'field', 'cycle', 'empty', 'truly', 'later', 'arise', 'begin', 'pilot', 'robot']",field,True,Yes,True,1730929931.4424853,1.3837323188781738
15,5,20,"['cheap', 'green', 'candy', 'guide', 'motor', 'grant', 'raise', 'shirt', 'think', 'prior', 'guest', 'field', 'cycle', 'empty', 'truly', 'later', 'arise', 'begin', 'pilot', 'robot']",cheap,True,No,False,1730929934.807482,2.6637494564056396
15,6,20,"['cheap', 'green', 'candy', 'guide', 'motor', 'grant', 'raise', 'shirt', 'think', 'prior', 'guest', 'field', 'cycle', 'empty', 'truly', 'later', 'arise', 'begin', 'pilot', 'robot']",fifty,False,No,True,1730929938.1544821,2.6464438438415527
15,7,20,"['cheap', 'green', 'candy', 'guide', 'motor', 'grant', 'raise', 'shirt', 'think', 'prior', 'guest', 'field', 'cycle', 'empty', 'truly', 'later', 'arise', 'begin', 'pilot', 'robot']",thank,False,No,True,1730929943.779482,4.9239702224731445
15,8,20,"['cheap', 'green', 'candy', 'guide', 'motor', 'grant', 'raise', 'shirt', 'think', 'prior', 'guest', 'field', 'cycle', 'empty', 'truly', 'later', 'arise', 'begin', 'pilot', 'robot']",metal,False,No,True,1730929945.3534813,0.8724920749664307
15,9,20,"['cheap', 'green', 'candy', 'guide', 'motor', 'grant', 'raise', 'shirt', 'think', 'prior', 'guest', 'field', 'cycle', 'empty', 'truly', 'later', 'arise', 'begin', 'pilot', 'robot']",habit,False,Yes,False,1730929946.9924817,0.9374358654022217
15,10,20,"['cheap', 'green', 'candy', 'guide', 'motor', 'grant', 'raise', 'shirt', 'think', 'prior', 'guest', 'field', 'cycle', 'empty', 'truly', 'later', 'arise', 'begin', 'pilot', 'robot']",guest,True,Yes,True,1730929948.9084828,1.2147717475891113
16,1,35,"['heart', 'call', 'night', 'brief', 'charm', 'group', 'movie', 'close', 'robot', 'speed', 'score', 'smoke', 'terry', 'smith', 'clean', 'occur', 'story', 'chalk', 'great', 'scale', 'calm', 'third', 'party', 'sixty', 'video', 'habit', 'acute', 'judge', 'album', 'crude', 'range', 'empty', 'crash', 'worst', 'needs']",smith,True,Yes,True,1730929987.5354805,1.4157977104187012
16,2,35,"['heart', 'call', 'night', 'brief', 'charm', 'group', 'movie', 'close', 'robot', 'speed', 'score', 'smoke', 'terry', 'smith', 'clean', 'occur', 'story', 'chalk', 'great', 'scale', 'calm', 'third', 'party', 'sixty', 'video', 'habit', 'acute', 'judge', 'album', 'crude', 'range', 'empty', 'crash', 'worst', 'needs']",zebra,False,Yes,False,1730929989.0104828,0.7739894390106201
16,3,35,"['heart', 'call', 'night', 'brief', 'charm', 'group', 'movie', 'close', 'robot', 'speed', 'score', 'smoke', 'terry', 'smith', 'clean', 'occur', 'story', 'chalk', 'great', 'scale', 'calm', 'third', 'party', 'sixty', 'video', 'habit', 'acute', 'judge', 'album', 'crude', 'range', 'empty', 'crash', 'worst', 'needs']",false,False,No,True,1730929990.8924806,1.1809148788452148
16,4,35,"['heart', 'call', 'night', 'brief', 'charm', 'group', 'movie', 'close', 'robot', 'speed', 'score', 'smoke', 'terry', 'smith', 'clean', 'occur', 'story', 'chalk', 'great', 'scale', 'calm', 'third', 'party', 'sixty', 'video', 'habit', 'acute', 'judge', 'album', 'crude', 'range', 'empty', 'crash', 'worst', 'needs']",story,True,Yes,True,1730929992.242485,0.6485302448272705
16,5,35,"['heart', 'call', 'night', 'brief', 'charm', 'group', 'movie', 'close', 'robot', 'speed', 'score', 'smoke', 'terry', 'smith', 'clean', 'occur', 'story', 'chalk', 'great', 'scale', 'calm', 'third', 'party', 'sixty', 'video', 'habit', 'acute', 'judge', 'album', 'crude', 'range', 'empty', 'crash', 'worst', 'needs']",treat,False,Yes,False,1730929993.5114815,0.5675909519195557
16,6,35,"['heart', 'call', 'night', 'brief', 'charm', 'group', 'movie', 'close', 'robot', 'speed', 'score', 'smoke', 'terry', 'smith', 'clean', 'occur', 'story', 'chalk', 'great', 'scale', 'calm', 'third', 'party', 'sixty', 'video', 'habit', 'acute', 'judge', 'album', 'crude', 'range', 'empty', 'crash', 'worst', 'needs']",sixty,True,Yes,True,1730929994.8084817,0.5952818393707275
16,7,35,"['heart', 'call', 'night', 'brief', 'charm', 'group', 'movie', 'close', 'robot', 'speed', 'score', 'smoke', 'terry', 'smith', 'clean', 'occur', 'story', 'chalk', 'great', 'scale', 'calm', 'third', 'party', 'sixty', 'video', 'habit', 'acute', 'judge', 'album', 'crude', 'range', 'empty', 'crash', 'worst', 'needs']",alive,False,No,True,1730929996.5394819,1.0299484729766846
16,8,35,"['heart', 'call', 'night', 'brief', 'charm', 'group', 'movie', 'close', 'robot', 'speed', 'score', 'smoke', 'terry', 'smith', 'clean', 'occur', 'story', 'chalk', 'great', 'scale', 'calm', 'third', 'party', 'sixty', 'video', 'habit', 'acute', 'judge', 'album', 'crude', 'range', 'empty', 'crash', 'worst', 'needs']",night,True,Yes,True,1730929997.834481,0.593951940536499
16,9,35,"['heart', 'call', 'night', 'brief', 'charm', 'group', 'movie', 'close', 'robot', 'speed', 'score', 'smoke', 'terry', 'smith', 'clean', 'occur', 'story', 'chalk', 'great', 'scale', 'calm', 'third', 'party', 'sixty', 'video', 'habit', 'acute', 'judge', 'album', 'crude', 'range', 'empty', 'crash', 'worst', 'needs']",worst,True,Yes,True,1730929999.1424823,0.606635332107544
16,10,35,"['heart', 'call', 'night', 'brief', 'charm', 'group', 'movie', 'close', 'robot', 'speed', 'score', 'smoke', 'terry', 'smith', 'clean', 'occur', 'story', 'chalk', 'great', 'scale', 'calm', 'third', 'party', 'sixty', 'video', 'habit', 'acute', 'judge', 'album', 'crude', 'range', 'empty', 'crash', 'worst', 'needs']",where,False,No,True,1730930000.5754824,0.732144832611084
17,1,30,"['stone', 'found', 'board', 'below', 'fully', 'shelf', 'issue', 'where', 'think', 'enjoy', 'match', 'acute', 'radio', 'curve', 'apart', 'chalk', 'truly', 'bunch', 'crowd', 'scale', 'index', 'ocean', 'chain', 'cable', 'these', 'those', 'proud', 'claim', 'least', 'grand']",plant,False,No,True,1730930034.3124871,1.5252933502197266
17,2,30,"['stone', 'found', 'board', 'below', 'fully', 'shelf', 'issue', 'where', 'think', 'enjoy', 'match', 'acute', 'radio', 'curve', 'apart', 'chalk', 'truly', 'bunch', 'crowd', 'scale', 'index', 'ocean', 'chain', 'cable', 'these', 'those', 'proud', 'claim', 'least', 'grand']",taxes,False,No,True,1730930035.8544817,0.8405911922454834
17,3,30,"['stone', 'found', 'board', 'below', 'fully', 'shelf', 'issue', 'where', 'think', 'enjoy', 'match', 'acute', 'radio', 'curve', 'apart', 'chalk', 'truly', 'bunch', 'crowd', 'scale', 'index', 'ocean', 'chain', 'cable', 'these', 'those', 'proud', 'claim', 'least', 'grand']",found,True,Yes,True,1730930037.2684839,0.7128713130950928
17,4,30,"['stone', 'found', 'board', 'below', 'fully', 'shelf', 'issue', 'where', 'think', 'enjoy', 'match', 'acute', 'radio', 'curve', 'apart', 'chalk', 'truly', 'bunch', 'crowd', 'scale', 'index', 'ocean', 'chain', 'cable', 'these', 'those', 'proud', 'claim', 'least', 'grand']",armed,False,No,True,1730930038.7124803,0.7423744201660156
17,5,30,"['stone', 'found', 'board', 'below', 'fully', 'shelf', 'issue', 'where', 'think', 'enjoy', 'match', 'acute', 'radio', 'curve', 'apart', 'chalk', 'truly', 'bunch', 'crowd', 'scale', 'index', 'ocean', 'chain', 'cable', 'these', 'those', 'proud', 'claim', 'least', 'grand']",acute,True,Yes,True,1730930040.0414848,0.627488374710083
17,6,30,"['stone', 'found', 'board', 'below', 'fully', 'shelf', 'issue', 'where', 'think', 'enjoy', 'match', 'acute', 'radio', 'curve', 'apart', 'chalk', 'truly', 'bunch', 'crowd', 'scale', 'index', 'ocean', 'chain', 'cable', 'these', 'those', 'proud', 'claim', 'least', 'grand']",crowd,True,Yes,True,1730930041.3714797,0.6288526058197021
17,7,30,"['stone', 'found', 'board', 'below', 'fully', 'shelf', 'issue', 'where', 'think', 'enjoy', 'match', 'acute', 'radio', 'curve', 'apart', 'chalk', 'truly', 'bunch', 'crowd', 'scale', 'index', 'ocean', 'chain', 'cable', 'these', 'those', 'proud', 'claim', 'least', 'grand']",apart,True,Yes,True,1730930042.7794833,0.7065298557281494
17,8,30,"['stone', 'found', 'board', 'below', 'fully', 'shelf', 'issue', 'where', 'think', 'enjoy', 'match', 'acute', 'radio', 'curve', 'apart', 'chalk', 'truly', 'bunch', 'crowd', 'scale', 'index', 'ocean', 'chain', 'cable', 'these', 'those', 'proud', 'claim', 'least', 'grand']",drill,False,No,True,1730930044.6784823,1.1976509094238281
17,9,30,"['stone', 'found', 'board', 'below', 'fully', 'shelf', 'issue', 'where', 'think', 'enjoy', 'match', 'acute', 'radio', 'curve', 'apart', 'chalk', 'truly', 'bunch', 'crowd', 'scale', 'index', 'ocean', 'chain', 'cable', 'these', 'those', 'proud', 'claim', 'least', 'grand']",these,True,Yes,True,1730930045.9274828,0.5479419231414795
17,10,30,"['stone', 'found', 'board', 'below', 'fully', 'shelf', 'issue', 'where', 'think', 'enjoy', 'match', 'acute', 'radio', 'curve', 'apart', 'chalk', 'truly', 'bunch', 'crowd', 'scale', 'index', 'ocean', 'chain', 'cable', 'these', 'those', 'proud', 'claim', 'least', 'grand']",chart,False,Yes,False,1730930047.2594824,0.6313161849975586
18,1,25,"['alert', 'admit', 'heavy', 'crown', 'shall', 'usage', 'lower', 'refer', 'white', 'tower', 'armed', 'cross', 'fleet', 'teach', 'motor', 'while', 'crash', 'trend', 'frank', 'scene', 'maybe', 'texas', 'clock', 'truly', 'shown']",clock,True,Yes,True,1730930075.8764808,1.3999512195587158
18,2,25,"['alert', 'admit', 'heavy', 'crown', 'shall', 'usage', 'lower', 'refer', 'white', 'tower', 'armed', 'cross', 'fleet', 'teach', 'motor', 'while', 'crash', 'trend', 'frank', 'scene', 'maybe', 'texas', 'clock', 'truly', 'shown']",early,False,No,True,1730930077.653486,1.0755317211151123
18,3,25,"['alert', 'admit', 'heavy', 'crown', 'shall', 'usage', 'lower', 'refer', 'white', 'tower', 'armed', 'cross', 'fleet', 'teach', 'motor', 'while', 'crash', 'trend', 'frank', 'scene', 'maybe', 'texas', 'clock', 'truly', 'shown']",heavy,True,No,False,1730930079.1514833,0.7966554164886475
18,4,25,"['alert', 'admit', 'heavy', 'crown', 'shall', 'usage', 'lower', 'refer', 'white', 'tower', 'armed', 'cross', 'fleet', 'teach', 'motor', 'while', 'crash', 'trend', 'frank', 'scene', 'maybe', 'texas', 'clock', 'truly', 'shown']",march,False,Yes,False,1730930080.8144815,0.9617607593536377
18,5,25,"['alert', 'admit', 'heavy', 'crown', 'shall', 'usage', 'lower', 'refer', 'white', 'tower', 'armed', 'cross', 'fleet', 'teach', 'motor', 'while', 'crash', 'trend', 'frank', 'scene', 'maybe', 'texas', 'clock', 'truly', 'shown']",tower,True,Yes,True,1730930082.125482,0.6100478172302246
18,6,25,"['alert', 'admit', 'heavy', 'crown', 'shall', 'usage', 'lower', 'refer', 'white', 'tower', 'armed', 'cross', 'fleet', 'teach', 'motor', 'while', 'crash', 'trend', 'frank', 'scene', 'maybe', 'texas', 'clock', 'truly', 'shown']",while,True,Yes,True,1730930083.484481,0.6578912734985352
18,7,25,"['alert', 'admit', 'heavy', 'crown', 'shall', 'usage', 'lower', 'refer', 'white', 'tower', 'armed', 'cross', 'fleet', 'teach', 'motor', 'while', 'crash', 'trend', 'frank', 'scene', 'maybe', 'texas', 'clock', 'truly', 'shown']",cache,False,Yes,False,1730930084.9324818,0.7469096183776855
18,8,25,"['alert', 'admit', 'heavy', 'crown', 'shall', 'usage', 'lower', 'refer', 'white', 'tower', 'armed', 'cross', 'fleet', 'teach', 'motor', 'while', 'crash', 'trend', 'frank', 'scene', 'maybe', 'texas', 'clock', 'truly', 'shown']",choir,False,No,True,1730930086.29448,0.6608052253723145
18,9,25,"['alert', 'admit', 'heavy', 'crown', 'shall', 'usage', 'lower', 'refer', 'white', 'tower', 'armed', 'cross', 'fleet', 'teach', 'motor', 'while', 'crash', 'trend', 'frank', 'scene', 'maybe', 'texas', 'clock', 'truly', 'shown']",shall,True,Yes,True,1730930087.5404835,0.5447971820831299
18,10,25,"['alert', 'admit', 'heavy', 'crown', 'shall', 'usage', 'lower', 'refer', 'white', 'tower', 'armed', 'cross', 'fleet', 'teach', 'motor', 'while', 'crash', 'trend', 'frank', 'scene', 'maybe', 'texas', 'clock', 'truly', 'shown']",touch,False,No,True,1730930089.032482,0.7910904884338379
19,1,15,"['chill', 'proof', 'after', 'false', 'while', 'valid', 'raise', 'chess', 'shirt', 'grass', 'known', 'fifty', 'peter', 'choir', 'legal']",fifth,False,No,True,1730930107.6094828,1.363537073135376
19,2,15,"['chill', 'proof', 'after', 'false', 'while', 'valid', 'raise', 'chess', 'shirt', 'grass', 'known', 'fifty', 'peter', 'choir', 'legal']",smoke,False,No,True,1730930109.080483,0.769742488861084
19,3,15,"['chill', 'proof', 'after', 'false', 'while', 'valid', 'raise', 'chess', 'shirt', 'grass', 'known', 'fifty', 'peter', 'choir', 'legal']",known,True,Yes,True,1730930110.5854838,0.8038759231567383
19,4,15,"['chill', 'proof', 'after', 'false', 'while', 'valid', 'raise', 'chess', 'shirt', 'grass', 'known', 'fifty', 'peter', 'choir', 'legal']",peter,True,Yes,True,1730930111.828481,0.5414948463439941
19,5,15,"['chill', 'proof', 'after', 'false', 'while', 'valid', 'raise', 'chess', 'shirt', 'grass', 'known', 'fifty', 'peter', 'choir', 'legal']",fifty,True,Yes,True,1730930113.143484,0.6134681701660156
19,6,15,"['chill', 'proof', 'after', 'false', 'while', 'valid', 'raise', 'chess', 'shirt', 'grass', 'known', 'fifty', 'peter', 'choir', 'legal']",worst,False,No,True,1730930115.607483,1.7625477313995361
19,7,15,"['chill', 'proof', 'after', 'false', 'while', 'valid', 'raise', 'chess', 'shirt', 'grass', 'known', 'fifty', 'peter', 'choir', 'legal']",valid,True,Yes,True,1730930117.5584817,1.2503924369812012
19,8,15,"['chill', 'proof', 'after', 'false', 'while', 'valid', 'raise', 'chess', 'shirt', 'grass', 'known', 'fifty', 'peter', 'choir', 'legal']",choir,True,Yes,True,1730930122.4884815,4.229384660720825
19,9,15,"['chill', 'proof', 'after', 'false', 'while', 'valid', 'raise', 'chess', 'shirt', 'grass', 'known', 'fifty', 'peter', 'choir', 'legal']",asset,False,No,True,1730930124.9204817,1.7311761379241943
19,10,15,"['chill', 'proof', 'after', 'false', 'while', 'valid', 'raise', 'chess', 'shirt', 'grass', 'known', 'fifty', 'peter', 'choir', 'legal']",sugar,False,Yes,False,1730930126.1854825,0.5638957023620605
20,1,20,"['color', 'water', 'cream', 'along', 'delay', 'apple', 'sport', 'stuck', 'smith', 'other', 'alert', 'exist', 'blind', 'stake', 'teach', 'stuff', 'drama', 'dance', 'maybe', 'eight']",prove,False,No,True,1730930150.7384822,2.3375000953674316
20,2,20,"['color', 'water', 'cream', 'along', 'delay', 'apple', 'sport', 'stuck', 'smith', 'other', 'alert', 'exist', 'blind', 'stake', 'teach', 'stuff', 'drama', 'dance', 'maybe', 'eight']",elite,False,No,True,1730930152.4304829,0.99137282371521
20,3,20,"['color', 'water', 'cream', 'along', 'delay', 'apple', 'sport', 'stuck', 'smith', 'other', 'alert', 'exist', 'blind', 'stake', 'teach', 'stuff', 'drama', 'dance', 'maybe', 'eight']",stuff,True,Yes,True,1730930153.7114828,0.5797159671783447
20,4,20,"['color', 'water', 'cream', 'along', 'delay', 'apple', 'sport', 'stuck', 'smith', 'other', 'alert', 'exist', 'blind', 'stake', 'teach', 'stuff', 'drama', 'dance', 'maybe', 'eight']",globe,False,No,True,1730930155.1444805,0.7321372032165527
20,5,20,"['color', 'water', 'cream', 'along', 'delay', 'apple', 'sport', 'stuck', 'smith', 'other', 'alert', 'exist', 'blind', 'stake', 'teach', 'stuff', 'drama', 'dance', 'maybe', 'eight']",drink,False,Yes,False,1730930156.3974845,0.5519952774047852
20,6,20,"['color', 'water', 'cream', 'along', 'delay', 'apple', 'sport', 'stuck', 'smith', 'other', 'alert', 'exist', 'blind', 'stake', 'teach', 'stuff', 'drama', 'dance', 'maybe', 'eight']",along,True,Yes,True,1730930157.7404816,0.6422479152679443
20,7,20,"['color', 'water', 'cream', 'along', 'delay', 'apple', 'sport', 'stuck', 'smith', 'other', 'alert', 'exist', 'blind', 'stake', 'teach', 'stuff', 'drama', 'dance', 'maybe', 'eight']",earth,False,Yes,False,1730930159.531484,1.089278221130371
20,8,20,"['color', 'water', 'cream', 'along', 'delay', 'apple', 'sport', 'stuck', 'smith', 'other', 'alert', 'exist', 'blind', 'stake', 'teach', 'stuff', 'drama', 'dance', 'maybe', 'eight']",drama,True,No,False,1730930160.9944828,0.762561559677124
20,9,20,"['color', 'water', 'cream', 'along', 'delay', 'apple', 'sport', 'stuck', 'smith', 'other', 'alert', 'exist', 'blind', 'stake', 'teach', 'stuff', 'drama', 'dance', 'maybe', 'eight']",dance,True,Yes,True,1730930162.4004836,0.7052557468414307
20,10,20,"['color', 'water', 'cream', 'along', 'delay', 'apple', 'sport', 'stuck', 'smith', 'other', 'alert', 'exist', 'blind', 'stake', 'teach', 'stuff', 'drama', 'dance', 'maybe', 'eight']",other,True,Yes,True,1730930163.896484,0.794647216796875
21,1,10,"['blood', 'piece', 'cross', 'roger', 'fiber', 'round', 'staff', 'class', 'learn', 'choir']",choir,True,Yes,True,1730930177.3054802,1.201305627822876
21,2,10,"['blood', 'piece', 'cross', 'roger', 'fiber', 'round', 'staff', 'class', 'learn', 'choir']",while,False,No,True,1730930179.618482,1.6116559505462646
21,3,10,"['blood', 'piece', 'cross', 'roger', 'fiber', 'round', 'staff', 'class', 'learn', 'choir']",piece,True,Yes,True,1730930180.8964813,0.5763192176818848
21,4,10,"['blood', 'piece', 'cross', 'roger', 'fiber', 'round', 'staff', 'class', 'learn', 'choir']",smoke,False,No,True,1730930182.6184833,1.0207290649414062
21,5,10,"['blood', 'piece', 'cross', 'roger', 'fiber', 'round', 'staff', 'class', 'learn', 'choir']",fiber,True,Yes,True,1730930183.859486,0.5400056838989258
21,6,10,"['blood', 'piece', 'cross', 'roger', 'fiber', 'round', 'staff', 'class', 'learn', 'choir']",class,True,Yes,True,1730930185.616481,1.0558059215545654
21,7,10,"['blood', 'piece', 'cross', 'roger', 'fiber', 'round', 'staff', 'class', 'learn', 'choir']",there,False,No,True,1730930187.093485,0.7754535675048828
21,8,10,"['blood', 'piece', 'cross', 'roger', 'fiber', 'round', 'staff', 'class', 'learn', 'choir']",guard,False,Yes,False,1730930188.7174823,0.922044038772583
21,9,10,"['blood', 'piece', 'cross', 'roger', 'fiber', 'round', 'staff', 'class', 'learn', 'choir']",roger,True,Yes,True,1730930190.0434813,0.6245923042297363
21,10,10,"['blood', 'piece', 'cross', 'roger', 'fiber', 'round', 'staff', 'class', 'learn', 'choir']",begin,False,No,True,1730930191.5694835,0.8246228694915771
